final_list,trial,trial_onset,final_audio_filename,final_condition,final_audio_transcript,audio_ended,final_probe,final_probe_condition,response,RT,accuracy,trial_completed,resume_number,time_info
2,1,0.000545217000762932,021_English_denoised_48000.wav,sentence,"The speech that the politician prepared was too long for the meeting",4.30035925300035,YEAR,probe_incorrect,0,0,0,1,0,55578.6107194824
2,2,6.11875774699729,022_English_denoised_48000.wav,sentence,"Dianne visited her mother in Europe but could not stay for long",10.2106394799921,VISITED,probe_correct,0,0,0,1,0,55584.7290527344
2,3,12.0306557949953,041_Nonsense_denoised_48000.wav,nonword,"daz othree vid peeker miridge nah poswerz nung ree ashdoh pleesht ud",16.8165457769937,LAPAZISHAW,probe_incorrect,0,0,0,1,0,55590.6412817383
2,4,18.6453536459885,042_Nonsense_denoised_48000.wav,nonword,"eekif thim eyee thut okder zee alteyd frest dihh ther gewee thaez",23.2773938070022,NIYIBIV,probe_incorrect,0,0,0,1,0,55597.256142334
2,5,25.0977489919896,023_English_denoised_48000.wav,sentence,"Before James found a solution he spend many nights in his office",29.4551022779924,HOUSE,probe_incorrect,0,0,0,1,0,55603.70853125
2,6,31.2671303499956,043_Nonsense_denoised_48000.wav,nonword,"tihut nah neyr zerjat sah malz nah genst tilee ruthaz trung speefim",36.0717366269964,TILEE,probe_correct,0,0,0,1,0,55609.8780915527
2,7,37.8870271490014,024_English_denoised_48000.wav,sentence,"The cop that wounded the fleeing robber was from the downtown presinct",42.2926569529955,PRESINCT,probe_correct,0,0,0,1,0,55616.4982929687
2,8,44.110627320988,025_English_denoised_48000.wav,sentence,"The patient that ordered a new wheel chair was a war veteran",47.6725050480018,YEARS,probe_incorrect,0,0,0,1,0,55622.7220974121
2,9,49.488761731991,044_Nonsense_denoised_48000.wav,nonword,"jayn pepiv aht skiser alt thet ree alderk aht beeztah tor difgant",54.3649228839931,PLEECHINGZ,probe_incorrect,0,0,0,1,0,55628.1003422852
2,10,56.1761201749905,026_English_denoised_48000.wav,sentence,"The zookeeper was very worried about the health of the polar bear",59.8864175149938,POLAR,probe_correct,0,0,0,1,0,55634.7878537598
2,11,61.6987568449986,045_Nonsense_denoised_48000.wav,nonword,"thayagas thung teyfil tor fiht hayn ihn tuh konee-taz aoz veyz skweem",66.6720051369921,THEYGEND,probe_incorrect,0,0,0,1,0,55640.3106462402
2,12,68.4839204219898,046_Nonsense_denoised_48000.wav,nonword,"chofoowee boom nud pleebipbiv nah erzgreyt ihn kiz wark ahn nah zachbree",73.5655838099919,CHOFOOWEE,probe_correct,0,0,0,1,0,55647.0959846191
2,13,75.3782788419921,027_English_denoised_48000.wav,sentence,"The nightclub gave a big discount to students from the local university",79.9532955489994,REPAIR,probe_incorrect,0,0,0,1,0,55653.9905256348
2,14,81.7699852319929,028_English_denoised_48000.wav,sentence,"Last night a van exploded in the parking-lot, but nobody was hurt",85.7138534989936,NIGHT,probe_correct,0,0,0,1,0,55660.3824042969
2,15,87.5302134359954,047_Nonsense_denoised_48000.wav,nonword,"ep wark ahn nah plademp nah deesblerner wup aht frish soo askleymbah",91.9768027679966,FOKAZ,probe_incorrect,0,0,0,1,0,55666.1427631836
2,16,93.7966287739982,048_Nonsense_denoised_48000.wav,nonword,"bab rups ekteethawee aev nah raldalee thung tabolch soo ned aht zeyz",99.6267954829964,RALDALEE,probe_correct,0,0,0,1,0,55672.4091242676
2,17,101.435310280998,049_Nonsense_denoised_48000.wav,nonword,"nah owteevayee teyn akthuz ihnt nah pash alt eyee thung thetty ashez",106.921605402997,PASH,probe_correct,0,0,0,1,0,55680.0480085449
2,18,108.733853361991,029_English_denoised_48000.wav,sentence,"For the reception, Paula wore a black dress and a beautiful shawl",112.978841093995,VERY,probe_incorrect,0,0,0,1,0,55687.3469230957
2,19,114.790218369002,030_English_denoised_48000.wav,sentence,"The door locked before Harry realized that he'd left the keys inside",118.991971028998,DISTANCE,probe_incorrect,0,0,0,1,0,55693.403407959
2,20,120.809498228991,031_English_denoised_48000.wav,sentence,"The truck stopped near the store and the drive unloaded the boxes",124.68956366599,LUCKY,probe_incorrect,0,0,0,1,0,55699.4228381348
2,21,126.502152069996,050_Nonsense_denoised_48000.wav,nonword,"sah theedge nah begmayr nah echlading sert sah aker edgethongtug ter halst",132.298662123998,THEEDGE,probe_correct,0,0,0,1,0,55705.115645752
2,22,134.106179066992,051_Nonsense_denoised_48000.wav,nonword,"nah foo baysh sangks derrig snikwee alt briflazer woop thud soo brai-kweesig",139.796686736998,AKFOWVID,probe_incorrect,0,0,0,1,0,55712.7198188477
2,23,141.611874019989,032_English_denoised_48000.wav,sentence,"The victims of the robbery were told to talk to the policemen",145.290233369989,TALK,probe_correct,0,0,0,1,0,55720.225682373
2,24,147.106947692999,052_Nonsense_denoised_48000.wav,nonword,"nah abrazaf thung yerlish adauws nah blik alt koh ree vaths spaksabeesh",152.46522239699,YERLISH,probe_correct,0,0,0,1,0,55725.7208547363
2,25,154.273045103997,053_Nonsense_denoised_48000.wav,nonword,"av nuh tasmee nuh welths agthitehz thuv nah sayl thung ploowree efrelragehs",159.75072453999,ASKOWPS,probe_incorrect,0,0,0,1,0,55732.8872312012
2,26,161.56335058999,033_English_denoised_48000.wav,sentence,"At the bus-stop Jason was approached by a stranger with an accent",165.698440088992,MARRY,probe_incorrect,0,0,0,1,0,55740.1777167969
2,27,167.511695527995,034_English_denoised_48000.wav,sentence,"Mark was selling his Mercedes hoping to buy a small sail boat",171.491160407997,MERCEDES,probe_correct,0,0,0,1,0,55746.1260449219
2,28,173.304261660989,054_Nonsense_denoised_48000.wav,nonword,"athker aht zapuh duht weys nuh toowk chaoyeks alt dooweyn drays ralzerstuv",178.725381908996,CHAOYEKS,probe_correct,0,0,0,1,0,55751.9188520508
2,29,180.536594966994,035_English_denoised_48000.wav,sentence,"Although Bill warned Catherine about the risks, she still decided to go",185.283145257999,RISKS,probe_correct,0,0,0,1,0,55759.1514118652
2,30,187.092828463996,055_Nonsense_denoised_48000.wav,nonword,"uht shuz tantrik alt fiht jajik predz diyayvid soo heyns soo pektubo",192.322152045992,DINKS,probe_incorrect,0,0,0,1,0,55765.7078237305
2,31,194.139235411989,036_English_denoised_48000.wav,sentence,"Having been born in Belgium, the journalist spoke perfect French and Dutch",199.07843500399,PERFECT,probe_correct,0,0,0,1,0,55772.7543654785
2,32,200.892466077989,056_Nonsense_denoised_48000.wav,nonword,"dereer nah snord nah voz-tays lerdz yaybleych alt thung thigriyfig nah drayperk",206.914046954989,SNORD,probe_correct,0,0,0,1,0,55779.5077990723
2,33,208.730632093997,037_English_denoised_48000.wav,sentence,"If you have a vitamin deficiency, you should eat lots of fruits",212.556013979993,SHOULD,probe_correct,0,0,0,1,0,55787.3460083008
2,34,214.371844182999,038_English_denoised_48000.wav,sentence,"In the battle, the soldier got wounded and went to the hospital",217.825459444997,SOMEWHAT,probe_incorrect,0,0,0,1,0,55792.9873579102
2,35,219.642407816995,057_Nonsense_denoised_48000.wav,nonword,"meegah sef dit ahk adzapeshk soo diblash nah seyat ahn nah nichfim",224.979842558998,SEF,probe_correct,0,0,0,1,0,55798.2581901855
2,36,226.788308543997,058_Nonsense_denoised_48000.wav,nonword,"nih imadrant yerd foo theeteft kam thuv fiht kamfoohelts mer int ogjer",232.13444008799,DOOTFID,probe_incorrect,0,0,0,1,0,55805.4041181641
2,37,233.948755954989,039_English_denoised_48000.wav,sentence,"For breakfast, Alex always had a piece of toast and chocolate milk",237.849621702,CHOCOLATE,probe_correct,0,0,0,1,0,55812.5648718262
2,38,239.664738081992,040_English_denoised_48000.wav,sentence,"Yesterday, Linda went for a jog and hurt her foot quite seriously",243.779685802991,GOOD,probe_incorrect,0,0,0,1,0,55818.2810146484
2,39,245.588560880002,059_Nonsense_denoised_48000.wav,nonword,"ejin hayderk lerer ree thool ned aht jan soo guk neh fathakad",250.613412480991,LERER,probe_correct,0,0,0,1,0,55824.2049816895
2,40,252.429054478998,060_Nonsense_denoised_48000.wav,nonword,"ditrayn nah nas leyer zichdichulz nah skayn sah dayga thung daz ditheyd",258.352384860002,DAP,probe_incorrect,0,0,0,1,0,55831.0456606445
